Folder: test/[22-05-04] 22MayE02 MDM (Ag-SiO2-Ag)

File: 20220504_FPcavity.csv
Baseline 100%T,,Baseline 0%T,,100T,,Baseline 100%T,,Baseline 0%T,,100T1,,Baseline 100%T,,Baseline 0%T,,100T_3,,sampleT,,sample2_T,,Baseline 100%T,,Baseline 0%T,,100R,,sample_R,,sample_bR,,
Wavelength (nm),%T,Wavelength (nm),%T,Wavelength (nm),%T,Wavelength (nm),%T,Wavelength (nm),%T,Wavelength (nm),%T,Wavelength (nm),%T,Wavelength (nm),%T,Wavelength (nm),%T,Wavelength (nm),%T,Wavelength (nm),%T,Wavelength (nm),%R,Wavelength (nm),%R,Wavelength (nm),%R,Wavelength (nm),%R,Wavelength (nm),%R,
1000,89.696,1000,0.00599506,1000,99.7199,1000,89.6326,1000,0.000840386,1000,99.9359,1000,89.6671,1000,0.0078054,1000,99.9764,1000,0.460433,1000,0.430599,1000,287.463,1000,0.0323803,1000,99.6818,1000,96.2207,1000,79.1462,
985,89.4184,985,0.00401209,985,100.307,985,89.6104,985,0.000760232,985,100.146,985,89.7876,985,0.00411503,985,99.9011,985,0.495807,985,0.467181,985,288.18,985,0.0355493,985,99.6193,985,96.0577,985,78.9508,
970,89.7737,970,0.00512033,970,99.9122,970,89.938,970,-0.0040718,970,99.8617,970,89.9258,970,0.0032066,970,99.903,970,0.542378,970,0.500731,970,288.722,970,0.0281933,970,99.6717,970,95.9642,970,78.8868,
955,89.9484,955,0.00594996,955,99.9733,955,89.9614,955,-0.00153726,955,100.083,955,89.9904,955,0.00702373,955,100.028,955,0.578996,955,0.533948,955,288.796,955,0.0357956,955,99.7026,955,95.9159,955,78.7394,
940,90.005,940,0.00802374,940,100.121,940,90.2274,940,0.00386335,940,100.032,940,90.2079,940,0.00721225,940,99.9237,940,0.631927,940,0.57774,940,289.233,940,0.0419417,940,99.6103,940,95.7021,940,78.5334,
925,90.0904,925,0.00630832,925,99.8344,925,90.043,925,0.00645223,925,99.989,925,90.2225,925,0.00282988,925,99.7961,925,0.689831,925,0.638098,925,288.646,925,0.0357352,925,99.7221,925,95.6538,925,78.3025,
910,89.8094,910,0.00824,910,100.258,910,90.0422,910,0.00469715,910,100.134,910,89.8537,910,0.00875872,910,100.278,910,0.75139,910,0.680096,910,288.332,910,0.0472284,910,99.6385,910,95.3864,910,77.7547,
895,89.6922,895,0.00757074,895,99.8682,895,89.7932,895,0.00629036,895,99.8838,895,89.9541,895,0.013012,895,99.6463,895,0.812245,895,0.745503,895,287.617,895,0.0471321,895,99.5779,895,95.1287,895,76.646,
880,89.2445,880,0.00694985,880,100.12,880,89.37,880,0.00696652,880,100.12,880,89.3023,880,0.00647516,880,100.258,880,0.910269,880,0.824589,880,286.247,880,0.0374229,880,99.1468,880,94.2752,880,72.8714,
865,88.986,865,0.00559634,865,99.9846,865,89.1752,865,0.0094956,865,99.9159,865,89.0762,865,0.00565104,865,99.9797,865,0.999361,865,0.906446,865,279.739,865,0.0350487,865,98.1129,865,92.1759,865,71.1902,
850,88.3611,850,0.00771024,850,100.108,850,88.6759,850,0.00834881,850,99.9856,850,88.7944,850,0.007698,850,99.8995,850,1.11287,850,1.00786,850,272.173,850,0.0417856,850,98.2816,850,91.2654,850,72.0763,
835,88.3641,835,0.00744624,835,100.038,835,88.6671,835,0.00600352,835,100.023,835,88.6369,835,0.0079416,835,100.038,835,1.23939,835,1.12676,835,270.142,835,0.0395173,835,98.221,835,90.765,835,72.5411,
820,88.0105,820,0.00669779,820,99.9314,820,88.5827,820,0.00725242,820,99.94,820,88.59,820,0.00643166,820,99.8994,820,1.39872,820,1.26623,820,270.082,820,0.0304953,820,98.0997,820,90.3832,820,72.8485,
805,87.96875,805,0.00548923,805,100.021,805,88.727,805,0.00821955,805,100.178,805,88.7618,805,0.00559946,805,100.023,805,1.57121,805,1.42217,805,270.995,805,0.0311775,805,98.1603,805,90.1917,805,72.7706,
790,74.0924,790,-0.00442415,790,100.05,790,74.3789,790,-0.00456057,790,99.9821,790,74.3123,790,-0.00406441,790,100.15,790,1.75552,790,1.58138,790,92.4586,790,0.00261798,790,99.8731,790,92.858,790,77.5652,
775,74.4663,775,-0.00446755,775,100.018,775,74.6634,775,-0.00553223,775,100.055,775,74.7482,775,-0.00405871,775,100.096,775,2.00281,775,1.79985,775,92.2801,775,0.00298716,775,99.9425,775,92.5367,775,77.5965,
760,74.7201,760,-0.00368044,760,100.152,760,75.1086,760,-0.00466542,760,99.934,760,75.0348,760,-0.00283479,760,100.013,760,2.31946,760,2.08068,760,92.4228,760,0.00341614,760,99.8517,760,91.8393,760,77.4351,
745,75.2934,745,-0.00389378,745,99.9045,745,75.4978,745,-0.00234621,745,100.06,745,75.4887,745,-0.00271671,745,100.122,745,2.70619,745,2.42588,745,92.3921,745,0.00350108,745,99.8511,745,91.2249,745,77.2841,
730,75.6304,730,-0.00362823,730,100.209,730,76.0796,730,-0.00311655,730,99.9301,730,76.0365,730,-0.003893,730,100.008,730,3.18779,730,2.85621,730,92.4039,730,0.00360726,730,99.8405,730,90.4559,730,76.9493,
715,76.1761,715,-0.00298431,715,99.9375,715,76.4071,715,-0.00376136,715,100.098,715,76.456,715,-0.00285845,715,100.071,715,3.81631,715,3.41645,715,92.6037,715,0.00423288,715,99.8289,715,89.378,715,76.3456,
700,76.5685,700,-0.00310932,700,100.123,700,76.9245,700,-0.00234144,700,100.041,700,76.9293,700,-0.00221244,700,99.9478,700,4.60848,700,4.11513,700,92.6284,700,0.0050799,700,99.8601,700,88.2079,700,75.5743,
685,76.903,685,-0.00221912,685,100.027,685,77.2668,685,-0.00209237,685,99.9259,685,77.2427,685,-0.00322541,685,100.111,685,5.66223,685,5.07027,685,92.9677,685,0.00544624,685,99.7549,685,86.5396,685,74.2397,
670,77.262,670,-0.00246946,670,99.9637,670,77.6634,670,-0.00272516,670,100.008,670,77.6355,670,-0.00221271,670,99.9742,670,7.08214,670,6.34113,670,93.1047,670,0.00512362,670,99.8571,670,84.5353,670,72.6439,
655,77.434,655,-0.00183256,655,100.181,655,77.7274,655,-0.00208609,655,100.031,655,77.7039,655,-0.0019836,655,100.171,655,9.02574,655,8.09229,655,93.4536,655,0.00656593,655,99.7864,655,81.7652,655,70.2873,
640,77.8138,640,-0.0022194,640,99.8518,640,78.0692,640,-0.00158848,640,100.082,640,78.0845,640,-0.00108798,640,100.106,640,11.7327,640,10.5624,640,93.8754,640,0.00683553,640,99.7639,640,78.045,640,67.005,
625,77.7429,625,-0.000122285,625,100.238,625,78.149,625,-0.000900917,625,100.055,625,78.1176,625,-0.00207641,625,100.041,625,15.6358,625,14.135,625,93.676,625,0.00753805,625,99.845,625,72.9204,625,62.4073,
610,77.876,610,-0.0013865,610,99.9296,610,78.0952,610,-0.00083986,610,100.006,610,78.1664,610,-0.00165511,610,100.05,610,21.2863,610,19.3745,610,93.8232,610,0.00742317,610,99.7198,610,65.5552,610,55.6634,
595,77.7541,595,-0.000824506,595,100.265,595,78.2806,595,-0.000406325,595,99.9963,595,78.1904,595,-0.000680946,595,100.071,595,29.5223,595,27.2271,595,94.0075,595,0.00678155,595,99.8415,595,55.368,595,46.2228,
580,77.7597,580,0.000664849,580,99.9125,580,77.9962,580,-0.000142889,580,100.085,580,78.002,580,-0.000288312,580,100.055,580,41.0312,580,38.5316,580,93.9138,580,0.00833759,580,99.7171,580,41.4131,580,33.436,
565,77.6767,565,-5.55999e-05,565,99.8982,565,77.9208,565,0.000904178,565,100.03,565,77.9466,565,0.000757436,565,100.007,565,54.5869,565,52.6941,565,94.0873,565,0.00793911,565,99.6223,565,25.2661,565,18.6725,
550,77.4005,550,-0.000529916,550,100.229,550,77.8523,550,0.000293619,550,100.074,550,77.8659,550,0.00184117,550,99.9771,550,65.907,550,65.4875,550,94.1563,550,0.00751003,550,99.7645,550,12.6449,550,7.10474,
535,77.6188,535,0.000588543,535,99.8556,535,77.8969,535,-7.45985e-05,535,100.002,535,77.8413,535,0.000599151,535,99.969,535,69.2337,535,69.5446,535,94.4509,535,0.00916165,535,99.7134,535,11.4099,535,6.03442,
520,77.5518,520,6.69314e-05,520,100.24,520,77.9883,520,-0.000193075,520,100.01,520,77.9575,520,0.00113796,520,100.062,520,63.4328,520,63.6513,520,94.8461,520,0.00790592,520,99.7196,520,21.4861,520,15.7023,
[...]
Baseline Correction               On
Baseline Type                     Zero SRA correction
Baseline File Name
Baseline Std Ref File Name
Cycle Mode                        Off
Comments
Method Log     :
Method Name    : Default
Date/Time stamp: 5/4/2022 2:07:15 PM
Method Modifications:
Y mode Changed: 5/4/2022 2:08:05 PM, Old:Abs, New:%T
Baseline Correction Changed: 5/4/2022 2:08:05 PM, Old:0, New:2
Y mode Changed: 5/4/2022 2:37:45 PM, Old:%T, New:%R
Baseline Correction Changed: 5/4/2022 2:37:45 PM, Old:2, New:3
End Method Modifications
<SBW (nm)> , 2.00
<Energy> , 87.10
<Slit height> , Full
<Current Wavelength> , 298.000

sample_R,
sample_R
Collection Time: 5/4/2022 2:46:42 PM
Operator Name  :
Scan Software Version: 3.00(182)
Parameter List :
Instrument                        Cary 500
Instrument Version                8.01
Start (nm)                        1000.000
Stop (nm)                         300.000
X Mode                            Nanometers
Y Mode                            %R
UV-Vis Scan Rate (nm/min)         600.000
UV-Vis Data Interval (nm)         1.000
UV-Vis Ave. Time (sec)            0.100
UV-Vis SBW (nm)                   2.000
Slit Height                       Full
Beam Mode                         Double
Signal-to-noise Mode              Off
UV Source                         On
Vis Source                        On
Third Source                      Off
Source Changeover (nm)            350.00
Detector Changeover (nm)          800.00
Grating Changeover (nm)           800.00
Baseline Correction               On
Baseline Type                     Zero SRA correction
Baseline File Name
Baseline Std Ref File Name
Cycle Mode                        Off
Comments
Method Log     :
Method Name    : Default
Date/Time stamp: 5/4/2022 2:07:15 PM
Method Modifications:
Y mode Changed: 5/4/2022 2:08:05 PM, Old:Abs, New:%T
Baseline Correction Changed: 5/4/2022 2:08:05 PM, Old:0, New:2
Y mode Changed: 5/4/2022 2:37:45 PM, Old:%T, New:%R
Baseline Correction Changed: 5/4/2022 2:37:45 PM, Old:2, New:3
End Method Modifications
<SBW (nm)> , 2.00
<Energy> , 87.10
<Slit height> , Full
<Current Wavelength> , 300.000

sample_bR,
sample_bR
Collection Time: 5/4/2022 2:49:49 PM
Operator Name  :
Scan Software Version: 3.00(182)
Parameter List :
Instrument                        Cary 500
Instrument Version                8.01
Start (nm)                        1000.000
Stop (nm)                         300.000
X Mode                            Nanometers
Y Mode                            %R
UV-Vis Scan Rate (nm/min)         600.000
UV-Vis Data Interval (nm)         1.000
UV-Vis Ave. Time (sec)            0.100
UV-Vis SBW (nm)                   2.000
Slit Height                       Full
Beam Mode                         Double
Signal-to-noise Mode              Off
UV Source                         On
Vis Source                        On
Third Source                      Off
Source Changeover (nm)            350.00
Detector Changeover (nm)          800.00
Grating Changeover (nm)           800.00
Baseline Correction               On
Baseline Type                     Zero SRA correction
Baseline File Name
Baseline Std Ref File Name
Cycle Mode                        Off
Comments
Method Log     :
Method Name    : Default
Date/Time stamp: 5/4/2022 2:07:15 PM
Method Modifications:
Y mode Changed: 5/4/2022 2:08:05 PM, Old:Abs, New:%T
Baseline Correction Changed: 5/4/2022 2:08:05 PM, Old:0, New:2
Y mode Changed: 5/4/2022 2:37:45 PM, Old:%T, New:%R
Baseline Correction Changed: 5/4/2022 2:37:45 PM, Old:2, New:3
End Method Modifications
<SBW (nm)> , 2.00
<Energy> , 87.10
<Slit height> , Full
<Current Wavelength> , 298.000

File: FP_bRm.csv
Wavelength (nm),%T
1000,0.793989
997,0.793249
994,0.792799
991,0.792768
988,0.792766
985,0.792525
982,0.792686
979,0.792816
976,0.792163
973,0.791661
970,0.791466
967,0.79119
964,0.790772
961,0.790448
958,0.790259
955,0.789743
952,0.789666
949,0.789459
946,0.788973
943,0.788859
940,0.788407
937,0.787883
934,0.787325
931,0.786975
928,0.78577
925,0.785206
922,0.78414
919,0.78352
916,0.782386
913,0.781124
910,0.780368
907,0.778523
904,0.777294
901,0.775128
898,0.773249
895,0.769708
892,0.766789
889,0.761138
886,0.755827
883,0.746367
880,0.734986
877,0.717905
874,0.718285
871,0.720878
868,0.721857
865,0.725594
862,0.728401
859,0.731559
856,0.732149
853,0.733261
850,0.733365
847,0.73385
844,0.734495
841,0.736875
838,0.738056
835,0.73855
832,0.740075
829,0.740511
826,0.741283
823,0.741898
820,0.742596
817,0.742314
814,0.742552
811,0.74259
808,0.741993
805,0.741345
802,0.740737
799,0.739361
796,0.775816
793,0.777005
790,0.776638
787,0.777012
784,0.776778
781,0.776526
778,0.776382
775,0.776411
772,0.776633
769,0.776152
766,0.776189
763,0.776076
760,0.775502
757,0.775982
754,0.775135
751,0.775323
748,0.774703
745,0.773994
742,0.773042
739,0.772533
736,0.771772
733,0.771246
730,0.770722
727,0.769228
724,0.768479
721,0.767463
718,0.765265
715,0.764764
712,0.763449
709,0.761793
706,0.759962
703,0.757537
700,0.756802
697,0.754905
694,0.751601
691,0.749965
688,0.746932
685,0.744221
682,0.741199
679,0.738146
676,0.73508
673,0.731314
670,0.727478
667,0.723219
664,0.718972
661,0.71441
658,0.709547
655,0.704377
652,0.698567
649,0.692537
646,0.686264
643,0.679277
640,0.671635
637,0.663692
634,0.655223
631,0.645907
628,0.63566
625,0.625042
622,0.613622
619,0.601096
616,0.587914
613,0.573823
610,0.558198
607,0.541161
604,0.523955
601,0.504756
598,0.484675
595,0.462961
592,0.43976
589,0.415391
586,0.390104
583,0.363112
580,0.335309
577,0.306412
574,0.276739
571,0.246634
568,0.216804
565,0.187433
562,0.158771
559,0.132299
556,0.108484
553,0.0877215
550,0.0712151
547,0.0587489
544,0.05177487
541,0.0492376
538,0.05251969
535,0.0605176
532,0.0732207
529,0.0896176
526,0.109642
523,0.132596
520,0.157464
517,0.183581
514,0.210183
511,0.237315
508,0.264039
505,0.290116
502,0.315342
499,0.339419
496,0.361913
493,0.383387
490,0.403394
487,0.422098
484,0.439263
481,0.455335
478,0.470011
475,0.483383
472,0.495624
469,0.50705
466,0.517017
463,0.525961
460,0.533769
457,0.541821
454,0.546719
451,0.553258
448,0.557378
445,0.561005
442,0.563575
439,0.566172
436,0.568327
433,0.569363
430,0.570305
427,0.569802
424,0.568903
421,0.56749
418,0.565135
415,0.562137
412,0.558348
409,0.554241
406,0.548225
403,0.542138
400,0.534504
397,0.525859
394,0.516221
391,0.505043
388,0.492747
385,0.479337
382,0.465521
379,0.454447
376,0.445125
373,0.435144
370,0.423803
367,0.409719
364,0.394481
361,0.377433
358,0.358591
355,0.337902
352,0.315245
349,0.2899
346,0.269481
343,0.23795
340,0.204861
337,0.1712261
334,0.139192
331,0.111364
328,0.089321
325,0.0741634
322,0.06523448
319,0.0604664
316,0.057631
313,0.0558189
310,0.0544687
307,0.0537631
304,0.0533054
301,0.0540518
300,0.0540926

File: FP_Rm.csv
Wavelength (nm),%T
1000,0.965278
997,0.965074
994,0.9645
991,0.964208
988,0.96466
985,0.964248
982,0.964374
979,0.963926
976,0.963846
973,0.96337
970,0.962803
967,0.962665
964,0.962822
961,0.962181
958,0.961946
955,0.96202
952,0.961689
949,0.961169
946,0.961368
943,0.960921
940,0.960766
937,0.960305
934,0.96026
931,0.960105
928,0.959562
925,0.959203
922,0.958496
919,0.95829
916,0.957944
913,0.957497
910,0.957325
907,0.956966
904,0.956335
901,0.955797
898,0.955614
895,0.955319
892,0.954721
889,0.953706
886,0.953567
883,0.952718
880,0.950865
877,0.949251
874,0.947792
871,0.944871
868,0.942595
865,0.939488
862,0.936537
859,0.930711
856,0.929374
853,0.928949
850,0.928611
847,0.925202
844,0.924782
841,0.926123
838,0.925258
835,0.92409
832,0.923993
829,0.923259
826,0.92258
823,0.921782
820,0.92134
817,0.920771
814,0.920183
811,0.919245
808,0.919221
805,0.918821
802,0.917987
799,0.917633
796,0.932102
793,0.931135
790,0.92976
787,0.92959
784,0.928644
781,0.927733
778,0.926459
775,0.9259
772,0.925089
769,0.923721
766,0.922558
763,0.921713
760,0.919758
757,0.918884
754,0.917701
751,0.916217
748,0.914839
745,0.91361
742,0.911925
739,0.910381
736,0.908857
733,0.907425
730,0.906004
727,0.90425
724,0.901752
721,0.899621
718,0.897638
715,0.895312
712,0.892826
709,0.890677
706,0.888147
703,0.885782
700,0.883314
697,0.880768
694,0.877606
691,0.874224
688,0.871057
685,0.867523
682,0.863836
679,0.85951
676,0.855663
673,0.851247
670,0.846563
667,0.84166
664,0.83674
661,0.831249
658,0.825777
655,0.819402
652,0.812977
649,0.806337
646,0.798696
643,0.790757
640,0.782297
637,0.7732266
634,0.763324
631,0.752698
628,0.741817
625,0.730336
622,0.717797
619,0.704347
616,0.689959
613,0.674555
610,0.657394
607,0.639642
604,0.620806
601,0.599839
598,0.577879
595,0.554558
592,0.528698
589,0.502423
586,0.474864
583,0.445682
580,0.415306
577,0.384006
574,0.35159
571,0.318711
568,0.285874
565,0.253619
562,0.222324
559,0.193488
556,0.167376
553,0.144862
550,0.126747
547,0.113273
544,0.105511
541,0.102818
538,0.105927
535,0.114427
532,0.127494
529,0.145069
526,0.165818
523,0.189742
520,0.215465
517,0.242483
514,0.269992
511,0.297829
508,0.325598
505,0.352449
502,0.378213
499,0.402636
496,0.425612
493,0.447514
490,0.468019
487,0.487147
484,0.504653
481,0.520899
478,0.535885
475,0.550587
472,0.562952
469,0.574719
466,0.584663
463,0.59401
460,0.602072
457,0.609545
454,0.615414
451,0.620847
448,0.62498
445,0.628513
442,0.631217
439,0.633282
436,0.634525
433,0.635072
430,0.63482
427,0.633288
424,0.630775
421,0.627796
418,0.623567
415,0.618565
412,0.61289
409,0.605957
406,0.598066
403,0.5887
400,0.578332
397,0.566966
394,0.553199
391,0.539385
388,0.523597
385,0.506871
382,0.490099
379,0.472659
376,0.455355
373,0.438493
370,0.421407
367,0.404408
364,0.387372
361,0.369734
358,0.35015
355,0.330437
352,0.309358
349,0.28753
346,0.263922
343,0.236256
340,0.205069
337,0.169955
334,0.133021
331,0.0960081
328,0.0616409
325,0.03412989
322,0.014098
319,0
316,0
313,0.00352209
310,0.0145337
307,0.0230296
304,0.0318415
301,0.04035244
300,0.0430719

File: FP_Tm.csv
Wavelength (nm),%T
1000,0.00430701
997,0.004424722
994,0.00445278
991,0.004457867
988,0.004541556
985,0.004676437
982,0.004633869
979,0.004720018
976,0.004771254
973,0.004859624
970,0.005012166
967,0.005067586
964,0.005128792
961,0.005258166
958,0.005226312
955,0.005337994
952,0.005406681
949,0.005514332
946,0.005572238
943,0.005745052
940,0.005781806
937,0.005851667
934,0.00599634
931,0.00605415
928,0.006196413
925,0.006394022
922,0.00640567
919,0.006449457
916,0.006594447
913,0.006704257
910,0.006782113
907,0.006958812
904,0.007082056
901,0.007186887
898,0.0074983
895,0.007481491
892,0.007670029
889,0.007819493
886,0.007960717
883,0.008118868
880,0.008224683
877,0.008345688
874,0.008552851
871,0.008636567
868,0.008912504
865,0.0090663
862,0.009187139
859,0.009487754
856,0.009686066
853,0.009777272
850,0.0100887
847,0.010255
844,0.0104475
841,0.0107161
838,0.0109244
835,0.0112634
832,0.0115137
829,0.0117798
826,0.0119836
823,0.0123664
820,0.0126751
817,0.0128752
814,0.013178
811,0.0135435
808,0.0137466
805,0.01421853
802,0.0145119
799,0.0149562
796,0.0149528
793,0.015286
790,0.0157901
787,0.01613327
784,0.0166285
781,0.0170166
778,0.0174763
775,0.0179812
772,0.0184922
769,0.0190032
766,0.019611
763,0.0202027
760,0.0208041
757,0.0213987
754,0.0220854
751,0.02275251
748,0.0234927
745,0.0242293
742,0.0250295
739,0.0258357
736,0.0267054
733,0.0275564
730,0.0285598
727,0.0295524
724,0.0306369
721,0.0317406
718,0.0329372
715,0.0341402
712,0.0353369
709,0.0367278
706,0.0381455
703,0.03958259
700,0.0411728
697,0.04290278
694,0.0447826
691,0.0465765
688,0.0485403
685,0.0506464
682,0.0529267
679,0.0553016
676,0.0578315
673,0.0605424
670,0.0634276
667,0.0663936
664,0.0696011
661,0.0730914
658,0.0767958
655,0.08078457
652,0.0851658
649,0.0897033
646,0.0946381
643,0.0999045
640,0.105513
637,0.111703
634,0.118228
631,0.125364
628,0.133026
625,0.141293
622,0.150303
619,0.159994
616,0.170553
613,0.181693
610,0.193648
607,0.206978
604,0.221605
601,0.237031
598,0.2542081
595,0.272078
592,0.29156
589,0.312726
586,0.335271
583,0.35894
580,0.385105
577,0.412153
574,0.440407
571,0.468914
568,0.497717
565,0.526907
562,0.556226
559,0.584211
556,0.610132
553,0.633964
550,0.655025
547,0.671756
544,0.684399
541,0.692516
538,0.696101
535,0.695662
532,0.690395
529,0.681031
526,0.669634
523,0.653551
520,0.636118
517,0.617419
514,0.597307
511,0.576711
508,0.555897
505,0.534901
502,0.514659
499,0.494276
496,0.475932
493,0.458213
490,0.441205
487,0.425535
484,0.410346
481,0.396522
478,0.383106
475,0.370816
472,0.358488
469,0.348279
466,0.338445
463,0.329363
460,0.321499
457,0.314195
454,0.307705
451,0.301843
448,0.296753
445,0.292184
442,0.288293
439,0.284905
436,0.282007
433,0.279478
430,0.277731
427,0.276741
424,0.276153
421,0.275994
418,0.276138
415,0.277912
412,0.279379
409,0.281275
406,0.28379
403,0.287024
400,0.290115
397,0.29348
394,0.296971
391,0.300522
388,0.303401
385,0.306586
382,0.310296
379,0.315366
376,0.32125
373,0.327917
370,0.334622
367,0.341635
364,0.349567
361,0.358122
358,0.369088
355,0.379886
352,0.392621
349,0.406685
346,0.422926
343,0.439063
340,0.452861
337,0.461259
334,0.461901
331,0.450517
328,0.42272
325,0.379881
322,0.323369
319,0.256546
316,0.189289
313,0.127786
310,0.0775866
307,0.0422379
304,0.0203844
301,0.00879354
300,0.00649715